2-THETA;INTENSITY
17.88;10.95
21.37;100.00
26.49;11.84
33.42;39.97
34.86;24.04
35.69;4.99
36.22;15.13
36.86;64.03
39.35;3.06
40.20;8.38
40.42;3.03
41.40;14.57
45.30;3.92
47.50;5.37
50.94;11.02
51.76;2.58
53.57;32.54
54.54;9.44
55.59;3.11
57.76;6.97
59.32;22.54
61.62;9.82
61.88;4.68
63.33;2.94
63.79;4.53
64.28;10.32
66.01;5.95
67.59;4.03
68.27;1.15
68.97;4.55
69.42;5.30
69.71;1.86
70.22;1.74
71.91;1.67
71.95;6.62
73.62;2.96
75.52;1.99
75.60;1.03
76.98;2.31
80.47;3.44
84.51;2.23
85.34;2.84
86.83;3.61
86.84;1.16
87.68;1.29
89.98;1.34