2-THETA;INTENSITY
17.82;12.24
21.21;100.00
26.33;11.08
33.25;41.26
34.70;24.00
35.48;4.80
36.08;14.47
36.65;66.19
39.02;3.23
39.97;8.64
40.10;2.81
41.20;14.93
43.20;1.13
45.06;3.48
47.29;5.94
50.58;10.76
51.50;2.46
53.20;33.62
54.19;9.68
55.37;3.34
57.38;6.92
59.03;23.03
61.29;10.00
61.50;4.62
62.93;3.27
63.25;4.47
64.00;10.05
65.63;5.96
67.04;4.41
67.88;1.08
68.40;4.42
69.10;5.36
69.14;2.04
69.80;1.99
71.33;1.78
71.54;6.85
73.23;2.86
74.92;2.05
75.09;1.08
76.54;2.38
79.85;3.26
84.11;2.41
84.52;2.90
86.08;1.10
86.20;1.04
86.25;3.68
87.21;1.39
89.46;1.24