2-THETA;INTENSITY
17.86;11.05
21.33;100.00
26.44;10.69
33.37;39.20
34.81;23.68
35.63;4.57
36.18;14.84
36.80;64.50
39.26;3.43
40.13;8.34
40.33;2.43
41.34;14.08
45.22;3.66
47.44;5.37
50.84;10.75
51.69;2.43
53.46;32.64
54.44;9.56
55.52;3.04
57.65;6.58
59.24;22.58
61.52;9.72
61.77;4.46
63.21;3.01
63.64;4.25
64.19;10.17
65.89;5.94
67.43;4.38
68.14;1.04
68.81;4.26
69.33;5.29
69.55;1.98
70.10;1.82
71.74;1.50
71.82;6.53
73.50;2.91
75.34;2.16
75.45;1.11
76.84;2.23
80.29;3.20
84.38;2.25
85.11;2.80
86.55;1.07
86.65;3.65
86.65;1.08
87.53;1.27
89.83;1.31