2-THETA;INTENSITY
18.04;11.24
21.85;100.00
26.96;10.99
33.92;43.16
35.27;26.76
36.29;5.27
36.55;17.36
37.46;76.83
40.37;3.73
40.81;9.58
41.45;2.06
41.95;15.48
44.55;1.68
45.94;4.96
48.02;5.61
50.72;1.41
52.04;10.04
52.45;2.17
54.67;36.65
55.58;10.82
56.12;3.52
58.88;7.86
60.08;24.27
62.46;10.76
62.96;3.97
64.48;2.56
64.97;11.66
65.48;4.98
67.01;6.10
69.29;1.06
69.29;4.96
70.24;6.29
70.74;3.34
71.38;1.96
71.49;1.89
73.01;7.13
73.70;1.61
74.59;3.32
77.04;1.23
77.34;2.23
78.10;2.41
82.35;3.64
85.48;2.28
87.98;2.92
88.42;4.21
88.71;1.43
88.86;1.44